PE UV       SUBTECH     SPECTRUM    ASCII       PEDS        4.00        
   -1
SN223_TiO2SiO2_onglass_glassside_8deg.asc
19/09/05
11:48:12.00
19/09/05
11:48:12.00
Analyst
SN223_TiO2SiO2_onglass_glassside_8deg
250.000000
1
Lambda 950
950L1302261
PerkinElmer UV WinLab 6.0.4.0738 / 1.61.00 Lambda 900

0
0
3350/20 889.8/5
0
0
UV/VIS
1
1
1
RBeamAtt,SBeamAtt,universal reflectance
0
0
0
0
Program
Program
3350/20 889.8/5
3350/1 889.8/1
3350/1 889.8/1
0
3350/8 3000/6 2585/4 2480/2 1810/1
 
 
 
0
 
889.8
319.2
889.8
Front
39
 
3350/S:100 3350/R:100
 
0
0
0
 
0
 
 
 
0
 
 
0
0
8.0
5.00
5.00
False
False
202L1303013
 
0
0


0
0
#HDR
-1
-1
#GR
nm
%R
1.0
0.0
1200.000000
-2.000000
476
8
82.238543
4.035985
#DATA
1200.000000	8.720861
1198.000000	8.495604
1196.000000	8.287532
1194.000000	8.073139
1192.000000	7.875480
1190.000000	7.686357
1188.000000	7.498943
1186.000000	7.322332
1184.000000	7.150585
1182.000000	6.980905
1180.000000	6.818084
1178.000000	6.667549
1176.000000	6.533577
1174.000000	6.400099
1172.000000	6.278616
1170.000000	6.176474
1168.000000	6.083986
1166.000000	6.000633
1164.000000	5.935993
1162.000000	5.872594
1160.000000	5.830835
1158.000000	5.819659
1156.000000	5.806104
1154.000000	5.818392
1152.000000	5.835437
1150.000000	5.877004
1148.000000	5.927255
1146.000000	6.005290
1144.000000	6.105118
1142.000000	6.209917
1140.000000	6.330930
1138.000000	6.474073
1136.000000	6.634411
1134.000000	6.810659
1132.000000	7.008129
1130.000000	7.207530
1128.000000	7.445763
1126.000000	7.692917
1124.000000	7.946304
1122.000000	8.224138
1120.000000	8.516058
1118.000000	8.807071
1116.000000	9.122899
1114.000000	9.441135
1112.000000	9.776799
1110.000000	10.119285
1108.000000	10.456741
1106.000000	10.813012
1104.000000	11.174907
1102.000000	11.534625
1100.000000	11.913922
1098.000000	12.285208
1096.000000	12.653927
1094.000000	13.036573
1092.000000	13.421389
1090.000000	13.796276
1088.000000	14.168429
1086.000000	14.551404
1084.000000	14.915904
1082.000000	15.287199
1080.000000	15.641548
1078.000000	15.985394
1076.000000	16.334238
1074.000000	16.669913
1072.000000	16.998122
1070.000000	17.297218
1068.000000	17.581478
1066.000000	17.868333
1064.000000	18.135500
1062.000000	18.381467
1060.000000	18.615688
1058.000000	18.835135
1056.000000	19.033046
1054.000000	19.200532
1052.000000	19.357020
1050.000000	19.500401
1048.000000	19.615373
1046.000000	19.702820
1044.000000	19.771497
1042.000000	19.817437
1040.000000	19.840830
1038.000000	19.825482
1036.000000	19.784678
1034.000000	19.724117
1032.000000	19.633067
1030.000000	19.510474
1028.000000	19.368537
1026.000000	19.185271
1024.000000	18.972626
1022.000000	18.742279
1020.000000	18.476193
1018.000000	18.168161
1016.000000	17.826380
1014.000000	17.459506
1012.000000	17.066962
1010.000000	16.641291
1008.000000	16.189798
1006.000000	15.714435
1004.000000	15.214881
1002.000000	14.685356
1000.000000	14.146913
998.000000	13.591387
996.000000	13.021034
994.000000	12.456672
992.000000	11.891330
990.000000	11.326564
988.000000	10.785585
986.000000	10.273509
984.000000	9.787753
982.000000	9.347345
980.000000	8.976906
978.000000	8.665506
976.000000	8.429927
974.000000	8.294055
972.000000	8.260725
970.000000	8.356814
968.000000	8.589997
966.000000	8.974446
964.000000	9.508409
962.000000	10.195745
960.000000	11.051218
958.000000	12.064288
956.000000	13.250932
954.000000	14.625794
952.000000	16.146522
950.000000	17.777758
948.000000	19.566877
946.000000	21.465832
944.000000	23.459657
942.000000	25.549531
940.000000	27.697416
938.000000	29.904885
936.000000	32.121805
934.000000	34.342859
932.000000	36.590488
930.000000	38.815724
928.000000	40.968292
926.000000	43.081701
924.000000	45.136043
922.000000	47.078366
920.000000	48.965648
918.000000	50.748978
916.000000	52.458817
914.000000	54.102358
912.000000	55.616480
910.000000	57.060290
908.000000	58.429281
906.000000	59.714350
904.000000	60.929220
902.000000	62.081581
900.000000	63.148149
898.000000	64.191644
896.000000	65.190238
894.000000	66.054424
892.000000	66.889132
890.000000	67.704088
888.000000	70.446455
886.000000	71.035520
884.000000	71.626746
882.000000	72.104029
880.000000	72.570116
878.000000	73.028502
876.000000	73.471721
874.000000	73.860993
872.000000	74.226126
870.000000	74.593115
868.000000	74.931059
866.000000	75.232848
864.000000	75.536643
862.000000	75.796859
860.000000	76.074396
858.000000	76.339952
856.000000	76.581739
854.000000	76.804812
852.000000	77.027192
850.000000	77.206038
848.000000	77.424581
846.000000	77.598956
844.000000	77.750238
842.000000	77.975999
840.000000	78.113562
838.000000	78.260975
836.000000	78.439289
834.000000	78.600878
832.000000	78.736606
830.000000	78.860532
828.000000	78.983365
826.000000	79.121220
824.000000	79.246302
822.000000	79.388126
820.000000	79.480715
818.000000	79.581724
816.000000	79.700873
814.000000	79.806144
812.000000	79.918041
810.000000	80.012934
808.000000	80.114762
806.000000	80.219378
804.000000	80.309171
802.000000	80.395238
800.000000	80.496144
798.000000	80.566040
796.000000	80.655618
794.000000	80.736978
792.000000	80.822415
790.000000	80.915655
788.000000	80.988982
786.000000	81.069832
784.000000	81.166132
782.000000	81.211225
780.000000	81.280762
778.000000	81.366802
776.000000	81.442134
774.000000	81.495314
772.000000	81.552925
770.000000	81.620288
768.000000	81.681625
766.000000	81.770991
764.000000	81.796783
762.000000	81.851526
760.000000	81.882734
758.000000	81.955451
756.000000	81.987494
754.000000	82.034063
752.000000	82.075628
750.000000	82.112469
748.000000	82.144275
746.000000	82.172698
744.000000	82.185809
742.000000	82.201031
740.000000	82.228314
738.000000	82.238543
736.000000	82.221207
734.000000	82.205539
732.000000	82.190290
730.000000	82.168940
728.000000	82.144040
726.000000	82.081091
724.000000	82.002164
722.000000	81.923107
720.000000	81.842977
718.000000	81.742820
716.000000	81.631311
714.000000	81.489495
712.000000	81.299231
710.000000	81.090495
708.000000	80.857550
706.000000	80.589879
704.000000	80.277450
702.000000	79.911046
700.000000	79.499227
698.000000	79.008368
696.000000	78.436202
694.000000	77.760957
692.000000	76.963852
690.000000	76.032797
688.000000	74.936477
686.000000	73.628390
684.000000	72.107064
682.000000	70.296892
680.000000	68.133878
678.000000	65.533279
676.000000	62.433545
674.000000	58.746666
672.000000	54.387584
670.000000	49.263705
668.000000	43.351415
666.000000	36.797536
664.000000	29.789174
662.000000	22.753319
660.000000	16.222428
658.000000	10.854349
656.000000	7.323554
654.000000	5.936422
652.000000	6.657529
650.000000	9.147966
648.000000	12.863112
646.000000	17.219803
644.000000	21.767924
642.000000	26.176143
640.000000	30.271262
638.000000	33.944226
636.000000	37.127126
634.000000	39.822335
632.000000	42.064804
630.000000	43.903887
628.000000	45.349789
626.000000	46.426196
624.000000	47.175199
622.000000	47.599795
620.000000	47.710522
618.000000	47.522436
616.000000	47.034333
614.000000	46.232575
612.000000	45.121008
610.000000	43.689593
608.000000	41.910692
606.000000	39.790112
604.000000	37.318626
602.000000	34.484812
600.000000	31.280856
598.000000	27.773108
596.000000	24.050562
594.000000	20.181221
592.000000	16.323878
590.000000	12.668196
588.000000	9.441148
586.000000	6.897648
584.000000	5.222633
582.000000	4.528202
580.000000	4.853867
578.000000	6.131246
576.000000	8.203340
574.000000	10.856999
572.000000	13.876333
570.000000	17.059057
568.000000	20.202629
566.000000	23.166483
564.000000	25.863081
562.000000	28.216107
560.000000	30.242107
558.000000	31.872061
556.000000	33.080930
554.000000	33.888011
552.000000	34.286931
550.000000	34.280563
548.000000	33.882169
546.000000	33.066737
544.000000	31.842122
542.000000	30.232769
540.000000	28.228984
538.000000	25.852256
536.000000	23.163575
534.000000	20.234997
532.000000	17.170385
530.000000	14.097107
528.000000	11.207873
526.000000	8.707541
524.000000	6.780255
522.000000	5.569467
520.000000	5.162734
518.000000	5.558028
516.000000	6.657991
514.000000	8.303956
512.000000	10.310199
510.000000	12.489787
508.000000	14.638771
506.000000	16.598962
504.000000	18.244079
502.000000	19.503598
500.000000	20.293528
498.000000	20.570461
496.000000	20.301937
494.000000	19.493902
492.000000	18.167440
490.000000	16.375514
488.000000	14.220651
486.000000	11.867495
484.000000	9.544166
482.000000	7.530405
480.000000	6.101249
478.000000	5.504247
476.000000	5.903642
474.000000	7.356456
472.000000	9.766871
470.000000	12.911973
468.000000	16.443755
466.000000	20.059609
464.000000	23.484383
462.000000	26.518713
460.000000	29.036506
458.000000	30.933203
456.000000	32.134267
454.000000	32.623954
452.000000	32.374785
450.000000	31.367499
448.000000	29.644168
446.000000	27.202104
444.000000	24.127411
442.000000	20.549452
440.000000	16.672291
438.000000	12.803960
436.000000	9.358034
434.000000	6.690128
432.000000	5.043373
430.000000	4.513869
428.000000	4.982479
426.000000	6.137097
424.000000	7.630384
422.000000	9.167866
420.000000	10.535004
418.000000	11.643174
416.000000	12.559852
414.000000	13.467179
412.000000	14.549508
410.000000	16.048507
408.000000	18.038760
406.000000	20.437515
404.000000	23.053362
402.000000	25.543166
400.000000	27.581378
398.000000	28.739204
396.000000	28.784504
394.000000	27.453004
392.000000	24.669924
390.000000	20.410474
388.000000	15.288709
386.000000	10.385182
384.000000	7.169290
382.000000	6.784630
380.000000	9.335814
378.000000	13.628167
376.000000	18.744801
374.000000	20.838759
372.000000	20.321814
370.000000	17.596926
368.000000	13.092696
366.000000	8.597722
364.000000	6.239800
362.000000	7.336621
360.000000	10.556750
358.000000	13.697079
356.000000	14.748396
354.000000	13.255428
352.000000	10.246510
350.000000	7.728565
348.000000	6.709263
346.000000	7.185639
344.000000	7.839302
342.000000	7.944556
340.000000	7.589976
338.000000	7.442369
336.000000	7.247319
334.000000	7.136534
332.000000	6.730184
330.000000	6.535285
328.000000	6.371894
326.000000	6.218275
324.000000	6.038285
322.000000	5.882418
320.000000	5.586996
318.000000	5.037775
316.000000	4.745235
314.000000	4.489895
312.000000	4.307896
310.000000	4.181787
308.000000	4.105562
306.000000	4.072484
304.000000	4.035985
302.000000	4.064401
300.000000	4.041879
298.000000	4.062275
296.000000	4.079671
294.000000	4.061754
292.000000	4.092972
290.000000	4.088148
288.000000	4.079475
286.000000	4.092245
284.000000	4.100900
282.000000	4.104377
280.000000	4.112937
278.000000	4.098631
276.000000	4.119691
274.000000	4.117749
272.000000	4.130452
270.000000	4.127373
268.000000	4.131763
266.000000	4.136192
264.000000	4.141515
262.000000	4.156296
260.000000	4.148960
258.000000	4.170888
256.000000	4.166273
254.000000	4.175023
252.000000	4.191000
250.000000	4.199770
