PE UV       SUBTECH     SPECTRUM    ASCII       PEDS        4.00        
   -1
SN274_TiO2SiO2_onglass_filmside_8deg.asc
19/09/05
10:38:43.00
19/09/05
10:38:43.00
Analyst
SN274_TiO2SiO2_onglass_filmside_8deg
250.000000
1
Lambda 950
950L1302261
PerkinElmer UV WinLab 6.0.4.0738 / 1.61.00 Lambda 900

0
0
3350/20 889.8/5
0
0
UV/VIS
1
1
1
RBeamAtt,SBeamAtt,universal reflectance
0
0
0
0
Program
Program
3350/20 889.8/5
3350/1 889.8/1
3350/1 889.8/1
0
3350/8 3000/5 2585/4 2480/2 1810/1
 
 
 
0
 
889.8
319.2
889.8
Front
39
 
3350/S:100 3350/R:100
 
0
0
0
 
0
 
 
 
0
 
 
0
0
8.0
5.00
5.00
False
False
202L1303013
 
0
0


0
0
#HDR
-1
-1
#GR
nm
%R
1.0
0.0
1200.000000
-2.000000
476
8
96.200653
5.239164
#DATA
1200.000000	16.845972
1198.000000	16.799721
1196.000000	16.752654
1194.000000	16.707564
1192.000000	16.653555
1190.000000	16.598949
1188.000000	16.539112
1186.000000	16.474186
1184.000000	16.416730
1182.000000	16.344659
1180.000000	16.279895
1178.000000	16.199614
1176.000000	16.125358
1174.000000	16.043064
1172.000000	15.962505
1170.000000	15.874028
1168.000000	15.782847
1166.000000	15.687802
1164.000000	15.596821
1162.000000	15.489741
1160.000000	15.387340
1158.000000	15.275155
1156.000000	15.165828
1154.000000	15.056280
1152.000000	14.945476
1150.000000	14.821339
1148.000000	14.697406
1146.000000	14.572340
1144.000000	14.441942
1142.000000	14.322360
1140.000000	14.218488
1138.000000	14.300727
1136.000000	13.904754
1134.000000	13.771249
1132.000000	13.625352
1130.000000	13.475964
1128.000000	13.332503
1126.000000	13.177924
1124.000000	13.025669
1122.000000	12.870639
1120.000000	12.711163
1118.000000	12.554460
1116.000000	12.395676
1114.000000	12.246857
1112.000000	12.085732
1110.000000	11.916717
1108.000000	11.765784
1106.000000	11.603046
1104.000000	11.450041
1102.000000	11.290181
1100.000000	11.133768
1098.000000	10.970162
1096.000000	10.808331
1094.000000	10.648458
1092.000000	10.497624
1090.000000	10.329325
1088.000000	10.177786
1086.000000	10.020476
1084.000000	9.863458
1082.000000	9.717780
1080.000000	9.560668
1078.000000	9.419066
1076.000000	9.280060
1074.000000	9.141771
1072.000000	9.007597
1070.000000	8.870059
1068.000000	8.742994
1066.000000	8.617230
1064.000000	8.507296
1062.000000	8.393241
1060.000000	8.282523
1058.000000	8.178756
1056.000000	8.085318
1054.000000	7.998690
1052.000000	7.910280
1050.000000	7.836312
1048.000000	7.767913
1046.000000	7.698254
1044.000000	7.640307
1042.000000	7.596544
1040.000000	7.562930
1038.000000	7.522849
1036.000000	7.495902
1034.000000	7.484749
1032.000000	7.483311
1030.000000	7.487426
1028.000000	7.495215
1026.000000	7.515664
1024.000000	7.541421
1022.000000	7.589286
1020.000000	7.639351
1018.000000	7.697014
1016.000000	7.764962
1014.000000	7.843761
1012.000000	7.929699
1010.000000	8.032436
1008.000000	8.141097
1006.000000	8.257781
1004.000000	8.386389
1002.000000	8.528121
1000.000000	8.674685
998.000000	8.827279
996.000000	8.995990
994.000000	9.180508
992.000000	9.365693
990.000000	9.552855
988.000000	9.766351
986.000000	9.974418
984.000000	10.191953
982.000000	10.416602
980.000000	10.652787
978.000000	10.892357
976.000000	11.136596
974.000000	11.385634
972.000000	11.658949
970.000000	11.922420
968.000000	12.185665
966.000000	12.467333
964.000000	12.743131
962.000000	13.019342
960.000000	13.300152
958.000000	13.572423
956.000000	13.875333
954.000000	14.188295
952.000000	14.471215
950.000000	14.765186
948.000000	15.058950
946.000000	15.352063
944.000000	15.635899
942.000000	15.900045
940.000000	16.189311
938.000000	16.495119
936.000000	16.780647
934.000000	17.044058
932.000000	17.321465
930.000000	17.590531
928.000000	17.855343
926.000000	18.119000
924.000000	18.377506
922.000000	18.611000
920.000000	18.845877
918.000000	19.063432
916.000000	19.292739
914.000000	19.543120
912.000000	19.732623
910.000000	19.896953
908.000000	20.083161
906.000000	20.282258
904.000000	20.432621
902.000000	20.552550
900.000000	20.685639
898.000000	20.832231
896.000000	20.953982
894.000000	21.018636
892.000000	21.140353
890.000000	21.223033
888.000000	21.984393
886.000000	22.016835
884.000000	22.037053
882.000000	22.033372
880.000000	22.016879
878.000000	21.992218
876.000000	21.940881
874.000000	21.866806
872.000000	21.784829
870.000000	21.676000
868.000000	21.564305
866.000000	21.429303
864.000000	21.276321
862.000000	21.095070
860.000000	20.907423
858.000000	20.690045
856.000000	20.452616
854.000000	20.207913
852.000000	19.940049
850.000000	19.645213
848.000000	19.328920
846.000000	19.007370
844.000000	18.668687
842.000000	18.304529
840.000000	17.924156
838.000000	17.520752
836.000000	17.117562
834.000000	16.690870
832.000000	16.249540
830.000000	15.797707
828.000000	15.320899
826.000000	14.847520
824.000000	14.355534
822.000000	13.857741
820.000000	13.360842
818.000000	12.846062
816.000000	12.327877
814.000000	11.820148
812.000000	11.308350
810.000000	10.795274
808.000000	10.289030
806.000000	9.789309
804.000000	9.301948
802.000000	8.830222
800.000000	8.371590
798.000000	7.924386
796.000000	7.508880
794.000000	7.122174
792.000000	6.758238
790.000000	6.425430
788.000000	6.129489
786.000000	5.871962
784.000000	5.655286
782.000000	5.479372
780.000000	5.352557
778.000000	5.270639
776.000000	5.239164
774.000000	5.260652
772.000000	5.333570
770.000000	5.458838
768.000000	5.639406
766.000000	5.874483
764.000000	6.160101
762.000000	6.499334
760.000000	6.891902
758.000000	7.338329
756.000000	7.824462
754.000000	8.353589
752.000000	8.932447
750.000000	9.550648
748.000000	10.205158
746.000000	10.884470
744.000000	11.595957
742.000000	12.328078
740.000000	13.082205
738.000000	13.855930
736.000000	14.632364
734.000000	15.415012
732.000000	16.198576
730.000000	16.980967
728.000000	17.763577
726.000000	18.523521
724.000000	19.270522
722.000000	19.994731
720.000000	20.700353
718.000000	21.382529
716.000000	22.028537
714.000000	22.630772
712.000000	23.210280
710.000000	23.749830
708.000000	24.250972
706.000000	24.708983
704.000000	25.121229
702.000000	25.467251
700.000000	25.775689
698.000000	26.032762
696.000000	26.230728
694.000000	26.376401
692.000000	26.461774
690.000000	26.480061
688.000000	26.436138
686.000000	26.331954
684.000000	26.168671
682.000000	25.940064
680.000000	25.634136
678.000000	25.262575
676.000000	24.832486
674.000000	24.331688
672.000000	23.759505
670.000000	23.118465
668.000000	22.422290
666.000000	21.663338
664.000000	20.833867
662.000000	19.949726
660.000000	19.011406
658.000000	18.018056
656.000000	16.985254
654.000000	15.926401
652.000000	14.841925
650.000000	13.738593
648.000000	12.634847
646.000000	11.551967
644.000000	10.501251
642.000000	9.497074
640.000000	8.556047
638.000000	7.699932
636.000000	6.950105
634.000000	6.323644
632.000000	5.837274
630.000000	5.504571
628.000000	5.343357
626.000000	5.363310
624.000000	5.568944
622.000000	5.964095
620.000000	6.550707
618.000000	7.317523
616.000000	8.247453
614.000000	9.330874
612.000000	10.548185
610.000000	11.884627
608.000000	13.314456
606.000000	14.805357
604.000000	16.331489
602.000000	17.875167
600.000000	19.425102
598.000000	20.947457
596.000000	22.403079
594.000000	23.798336
592.000000	25.123088
590.000000	26.349486
588.000000	27.462532
586.000000	28.452749
584.000000	29.313792
582.000000	30.042850
580.000000	30.619432
578.000000	31.043465
576.000000	31.308987
574.000000	31.413144
572.000000	31.350092
570.000000	31.103839
568.000000	30.686665
566.000000	30.084894
564.000000	29.304113
562.000000	28.346653
560.000000	27.178827
558.000000	25.834740
556.000000	24.336131
554.000000	22.701411
552.000000	20.932287
550.000000	19.042901
548.000000	17.091092
546.000000	15.119910
544.000000	13.182274
542.000000	11.342362
540.000000	9.654868
538.000000	8.193245
536.000000	7.018225
534.000000	6.179589
532.000000	5.702486
530.000000	5.592936
528.000000	5.840122
526.000000	6.400147
524.000000	7.214441
522.000000	8.208316
520.000000	9.303281
518.000000	10.415794
516.000000	11.467138
514.000000	12.398667
512.000000	13.180712
510.000000	13.814663
508.000000	14.328220
506.000000	14.823984
504.000000	15.465907
502.000000	16.521225
500.000000	18.310472
498.000000	21.221974
496.000000	25.532069
494.000000	31.365635
492.000000	38.588320
490.000000	46.667275
488.000000	54.962450
486.000000	62.837987
484.000000	69.842370
482.000000	75.614639
480.000000	80.324197
478.000000	84.040429
476.000000	86.954416
474.000000	89.212687
472.000000	90.934803
470.000000	92.279279
468.000000	93.281424
466.000000	94.044332
464.000000	94.622305
462.000000	95.048050
460.000000	95.402530
458.000000	95.650289
456.000000	95.831933
454.000000	95.986390
452.000000	96.096560
450.000000	96.136205
448.000000	96.199079
446.000000	96.200653
444.000000	96.167060
442.000000	96.119902
440.000000	96.122431
438.000000	96.077341
436.000000	96.010788
434.000000	95.925018
432.000000	95.828092
430.000000	95.754463
428.000000	95.625314
426.000000	95.523228
424.000000	95.437263
422.000000	95.296972
420.000000	95.163775
418.000000	95.043729
416.000000	94.879737
414.000000	94.725771
412.000000	94.529152
410.000000	94.348825
408.000000	94.144106
406.000000	93.893122
404.000000	93.717227
402.000000	93.432585
400.000000	93.162894
398.000000	92.887623
396.000000	92.533266
394.000000	92.158464
392.000000	91.779161
390.000000	91.255507
388.000000	90.712252
386.000000	90.032427
384.000000	89.231492
382.000000	88.262538
380.000000	87.067730
378.000000	85.520385
376.000000	82.860847
374.000000	79.924541
372.000000	74.689097
370.000000	66.258194
368.000000	52.331236
366.000000	34.258037
364.000000	23.556659
362.000000	30.444241
360.000000	45.787474
358.000000	56.876399
356.000000	61.380521
354.000000	61.307535
352.000000	58.194664
350.000000	51.898229
348.000000	43.047156
346.000000	31.976720
344.000000	21.019195
342.000000	13.024883
340.000000	10.103013
338.000000	11.562213
336.000000	14.326272
334.000000	15.971320
332.000000	15.932109
330.000000	14.360481
328.000000	12.364694
326.000000	10.789787
324.000000	9.888401
322.000000	9.649712
320.000000	9.658499
318.000000	9.956657
316.000000	10.266781
314.000000	10.610700
312.000000	10.908957
310.000000	11.186326
308.000000	11.503005
306.000000	11.844779
304.000000	12.214097
302.000000	12.637118
300.000000	13.052534
298.000000	13.507283
296.000000	13.941569
294.000000	14.359550
292.000000	14.810370
290.000000	15.180513
288.000000	15.531965
286.000000	15.877633
284.000000	16.143188
282.000000	16.424262
280.000000	16.668127
278.000000	16.896714
276.000000	17.059091
274.000000	17.190632
272.000000	17.303303
270.000000	17.406625
268.000000	17.455370
266.000000	17.496980
264.000000	17.499300
262.000000	17.502271
260.000000	17.455679
258.000000	17.397960
256.000000	17.332883
254.000000	17.250534
252.000000	17.201395
250.000000	17.103958
